File: dados_concreto.csv
Cement,Blast Furnace Slag,Fly Ash,Water,Superplasticizer,Coarse Aggregate,Fine Aggregate,Age,Concrete compressive strength,Strength Category
540.0 ,0.0 ,0.0 ,162.0 ,2.5 ,1040.0 ,676.0 ,28 ,79.99 ,Alto
332.5 ,142.5 ,0.0 ,228.0 ,0.0 ,932.0 ,594.0 ,365 ,41.05 ,Baixa
380.0 ,95.0 ,0.0 ,228.0 ,0.0 ,932.0 ,594.0 ,365 ,43.70 ,Baixa
475.0 ,0.0 ,0.0 ,228.0 ,0.0 ,932.0 ,594.0 ,28 ,39.29 ,Baixa
427.5 ,47.5 ,0.0 ,228.0 ,0.0 ,932.0 ,594.0 ,270 ,43.01 ,Baixa
380.0 ,0.0 ,0.0 ,228.0 ,0.0 ,932.0 ,670.0 ,90 ,52.91 ,Baixa
380.0 ,95.0 ,0.0 ,228.0 ,0.0 ,932.0 ,594.0 ,90 ,40.56 ,Baixa
139.6 ,209.4 ,0.0 ,192.0 ,0.0 ,1047.0 ,806.9 ,28 ,28.24 ,Baixa
380.0 ,0.0 ,0.0 ,228.0 ,0.0 ,932.0 ,670.0 ,365 ,52.52 ,Baixa
342.0 ,38.0 ,0.0 ,228.0 ,0.0 ,932.0 ,670.0 ,180 ,52.12 ,Baixa
304.0 ,76.0 ,0.0 ,228.0 ,0.0 ,932.0 ,670.0 ,365 ,55.26 ,Baixa
475.0 ,0.0 ,0.0 ,228.0 ,0.0 ,932.0 ,594.0 ,270 ,42.13 ,Baixa
237.5 ,237.5 ,0.0 ,228.0 ,0.0 ,932.0 ,594.0 ,28 ,30.08 ,Baixa
237.5 ,237.5 ,0.0 ,228.0 ,0.0 ,932.0 ,594.0 ,180 ,36.25 ,Baixa
237.5 ,237.5 ,0.0 ,228.0 ,0.0 ,932.0 ,594.0 ,365 ,39.00 ,Baixa
427.5 ,47.5 ,0.0 ,228.0 ,0.0 ,932.0 ,594.0 ,7 ,35.08 ,Baixa
237.5 ,237.5 ,0.0 ,228.0 ,0.0 ,932.0 ,594.0 ,7 ,26.26 ,Baixa
190.0 ,190.0 ,0.0 ,228.0 ,0.0 ,932.0 ,670.0 ,180 ,46.93 ,Baixa
139.6 ,209.4 ,0.0 ,192.0 ,0.0 ,1047.0 ,806.9 ,7 ,14.59 ,Baixa
198.6 ,132.4 ,0.0 ,192.0 ,0.0 ,978.4 ,825.5 ,3 ,9.13 ,Baixa
304.0 ,76.0 ,0.0 ,228.0 ,0.0 ,932.0 ,670.0 ,270 ,54.38 ,Baixa
190.0 ,190.0 ,0.0 ,228.0 ,0.0 ,932.0 ,670.0 ,270 ,50.66 ,Baixa
139.6 ,209.4 ,0.0 ,192.0 ,0.0 ,1047.0 ,806.9 ,360 ,44.70 ,Baixa
485.0 ,0.0 ,0.0 ,146.0 ,0.0 ,1120.0 ,800.0 ,28 ,71.99 ,Alto
425.0 ,106.3 ,0.0 ,153.5 ,16.5 ,852.1 ,887.1 ,3 ,33.40 ,Baixa
475.0 ,118.8 ,0.0 ,181.1 ,8.9 ,852.1 ,781.5 ,3 ,37.80 ,Baixa
388.6 ,97.1 ,0.0 ,157.9 ,12.1 ,852.1 ,925.7 ,3 ,28.10 ,Baixa
318.8 ,212.5 ,0.0 ,155.7 ,14.3 ,852.1 ,880.4 ,3 ,25.20 ,Baixa
323.7 ,282.8 ,0.0 ,183.8 ,10.3 ,942.7 ,659.9 ,3 ,28.30 ,Baixa
286.3 ,200.9 ,0.0 ,144.7 ,11.2 ,1004.6 ,803.7 ,3 ,24.40 ,Baixa
389.9 ,189.0 ,0.0 ,145.9 ,22.0 ,944.7 ,755.8 ,3 ,40.60 ,Baixa
374.0 ,189.2 ,0.0 ,170.1 ,10.1 ,926.1 ,756.7 ,7 ,46.20 ,Baixa
425.0 ,106.3 ,0.0 ,151.4 ,18.6 ,936.0 ,803.7 ,7 ,46.80 ,Baixa
469.0 ,117.2 ,0.0 ,137.8 ,32.2 ,852.1 ,840.5 ,7 ,54.90 ,Baixa
531.3 ,0.0 ,0.0 ,141.8 ,28.2 ,852.1 ,893.7 ,7 ,46.90 ,Baixa
401.8 ,94.7 ,0.0 ,147.4 ,11.4 ,946.8 ,852.1 ,7 ,54.10 ,Baixa
379.5 ,151.2 ,0.0 ,153.9 ,15.9 ,1134.3 ,605.0 ,7 ,47.10 ,Baixa
362.6 ,189.0 ,0.0 ,164.9 ,11.6 ,944.7 ,755.8 ,7 ,55.90 ,Baixa
362.6 ,189.0 ,0.0 ,164.9 ,11.6 ,944.7 ,755.8 ,7 ,22.90 ,Baixa
313.3 ,262.2 ,0.0 ,175.5 ,8.6 ,1046.9 ,611.8 ,28 ,59.80 ,Baixa
375.0 ,93.8 ,0.0 ,126.6 ,23.4 ,852.1 ,992.6 ,28 ,56.70 ,Baixa
425.0 ,106.3 ,0.0 ,153.5 ,16.5 ,852.1 ,887.1 ,28 ,60.29 ,Alto
425.0 ,106.3 ,0.0 ,153.5 ,16.5 ,852.1 ,887.1 ,28 ,60.29 ,Alto
362.6 ,189.0 ,0.0 ,164.9 ,11.6 ,944.7 ,755.8 ,28 ,71.30 ,Alto
362.6 ,189.0 ,0.0 ,164.9 ,11.6 ,944.7 ,755.8 ,28 ,71.30 ,Alto
439.0 ,177.0 ,0.0 ,186.0 ,11.1 ,884.9 ,707.9 ,28 ,66.00 ,Alto
337.9 ,189.0 ,0.0 ,174.9 ,9.5 ,944.7 ,755.8 ,28 ,49.90 ,Baixa
425.0 ,106.3 ,0.0 ,153.5 ,16.5 ,852.1 ,887.1 ,56 ,64.30 ,Alto
475.0 ,118.8 ,0.0 ,181.1 ,8.9 ,852.1 ,781.5 ,56 ,72.30 ,Alto
388.6 ,97.1 ,0.0 ,157.9 ,12.1 ,852.1 ,925.7 ,56 ,55.20 ,Baixa
318.8 ,212.5 ,0.0 ,155.7 ,14.3 ,852.1 ,880.4 ,56 ,66.10 ,Alto
323.7 ,282.8 ,0.0 ,183.8 ,10.3 ,942.7 ,659.9 ,56 ,80.20 ,Alto
286.3 ,200.9 ,0.0 ,144.7 ,11.2 ,1004.6 ,803.7 ,56 ,72.99 ,Alto
389.9 ,189.0 ,0.0 ,145.9 ,22.0 ,944.7 ,755.8 ,56 ,79.40 ,Alto
374.0 ,189.2 ,0.0 ,170.1 ,10.1 ,926.1 ,756.7 ,91 ,64.90 ,Alto
425.0 ,106.3 ,0.0 ,151.4 ,18.6 ,936.0 ,803.7 ,91 ,66.70 ,Alto
469.0 ,117.2 ,0.0 ,137.8 ,32.2 ,852.1 ,840.5 ,91 ,70.70 ,Alto
531.3 ,0.0 ,0.0 ,141.8 ,28.2 ,852.1 ,893.7 ,91 ,59.20 ,Baixa
401.8 ,94.7 ,0.0 ,147.4 ,11.4 ,946.8 ,852.1 ,91 ,75.50 ,Alto
362.6 ,189.0 ,0.0 ,164.9 ,11.6 ,944.7 ,755.8 ,91 ,79.30 ,Alto
439.0 ,177.0 ,0.0 ,186.0 ,11.1 ,884.9 ,707.9 ,91 ,73.30 ,Alto
337.9 ,189.0 ,0.0 ,174.9 ,9.5 ,944.7 ,755.8 ,91 ,67.80 ,Alto
222.4 ,0.0 ,96.7 ,189.3 ,4.5 ,967.1 ,870.3 ,28 ,24.89 ,Baixa
233.8 ,0.0 ,94.6 ,197.9 ,4.6 ,947.0 ,852.2 ,3 ,10.38 ,Baixa
233.8 ,0.0 ,94.6 ,197.9 ,4.6 ,947.0 ,852.2 ,56 ,27.66 ,Baixa
194.7 ,0.0 ,100.5 ,165.6 ,7.5 ,1006.4 ,905.9 ,14 ,24.99 ,Baixa
194.7 ,0.0 ,100.5 ,165.6 ,7.5 ,1006.4 ,905.9 ,100 ,37.34 ,Baixa
190.7 ,0.0 ,125.4 ,162.1 ,7.8 ,1090.0 ,804.0 ,28 ,26.40 ,Baixa
212.1 ,0.0 ,121.6 ,180.3 ,5.7 ,1057.6 ,779.3 ,3 ,12.47 ,Baixa
212.1 ,0.0 ,121.6 ,180.3 ,5.7 ,1057.6 ,779.3 ,56 ,34.20 ,Baixa
230.0 ,0.0 ,118.3 ,195.5 ,4.6 ,1029.4 ,758.6 ,14 ,20.08 ,Baixa
230.0 ,0.0 ,118.3 ,195.5 ,4.6 ,1029.4 ,758.6 ,100 ,35.34 ,Baixa
190.3 ,0.0 ,125.2 ,161.9 ,9.9 ,1088.1 ,802.6 ,28 ,28.47 ,Baixa
166.1 ,0.0 ,163.3 ,176.5 ,4.5 ,1058.6 ,780.1 ,3 ,10.76 ,Baixa
166.1 ,0.0 ,163.3 ,176.5 ,4.5 ,1058.6 ,780.1 ,56 ,28.63 ,Baixa
168.0 ,42.1 ,163.8 ,121.8 ,5.7 ,1058.7 ,780.1 ,14 ,17.82 ,Baixa
168.0 ,42.1 ,163.8 ,121.8 ,5.7 ,1058.7 ,780.1 ,100 ,39.23 ,Baixa
213.7 ,98.1 ,24.5 ,181.7 ,6.9 ,1065.8 ,785.4 ,28 ,45.71 ,Baixa
213.8 ,98.1 ,24.5 ,181.7 ,6.7 ,1066.0 ,785.5 ,3 ,13.18 ,Baixa
213.8 ,98.1 ,24.5 ,181.7 ,6.7 ,1066.0 ,785.5 ,56 ,47.13 ,Baixa
229.7 ,0.0 ,118.2 ,195.2 ,6.1 ,1028.1 ,757.6 ,14 ,22.32 ,Baixa
229.7 ,0.0 ,118.2 ,195.2 ,6.1 ,1028.1 ,757.6 ,100 ,40.86 ,Baixa
238.1 ,0.0 ,94.1 ,186.7 ,7.0 ,949.9 ,847.0 ,28 ,30.23 ,Baixa
250.0 ,0.0 ,95.7 ,187.4 ,5.5 ,956.9 ,861.2 ,3 ,13.82 ,Baixa
250.0 ,0.0 ,95.7 ,187.4 ,5.5 ,956.9 ,861.2 ,56 ,38.33 ,Baixa
212.5 ,0.0 ,100.4 ,159.3 ,8.7 ,1007.8 ,903.6 ,14 ,26.31 ,Baixa
212.5 ,0.0 ,100.4 ,159.3 ,8.7 ,1007.8 ,903.6 ,100 ,42.92 ,Baixa
212.6 ,0.0 ,100.4 ,159.4 ,10.4 ,1003.8 ,903.8 ,28 ,37.40 ,Baixa
212.0 ,0.0 ,124.8 ,159.0 ,7.8 ,1085.4 ,799.5 ,3 ,19.52 ,Baixa
212.0 ,0.0 ,124.8 ,159.0 ,7.8 ,1085.4 ,799.5 ,56 ,45.08 ,Baixa
231.8 ,0.0 ,121.6 ,174.0 ,6.7 ,1056.4 ,778.5 ,14 ,26.77 ,Baixa
231.8 ,0.0 ,121.6 ,174.0 ,6.7 ,1056.4 ,778.5 ,100 ,45.84 ,Baixa
251.4 ,0.0 ,118.3 ,188.5 ,5.8 ,1028.4 ,757.7 ,28 ,29.65 ,Baixa
251.4 ,0.0 ,118.3 ,188.5 ,6.4 ,1028.4 ,757.7 ,3 ,13.12 ,Baixa
251.4 ,0.0 ,118.3 ,188.5 ,6.4 ,1028.4 ,757.7 ,56 ,36.64 ,Baixa
181.4 ,0.0 ,167.0 ,169.6 ,7.6 ,1055.6 ,777.8 ,14 ,21.60 ,Baixa
181.4 ,0.0 ,167.0 ,169.6 ,7.6 ,1055.6 ,777.8 ,100 ,45.37 ,Baixa
182.0 ,45.2 ,122.0 ,170.2 ,8.2 ,1059.4 ,780.7 ,28 ,31.27 ,Baixa
168.9 ,42.2 ,124.3 ,158.3 ,10.8 ,1080.8 ,796.2 ,3 ,7.40 ,Baixa
168.9 ,42.2 ,124.3 ,158.3 ,10.8 ,1080.8 ,796.2 ,56 ,39.15 ,Baixa
290.4 ,0.0 ,96.2 ,168.1 ,9.4 ,961.2 ,865.0 ,14 ,34.67 ,Baixa
290.4 ,0.0 ,96.2 ,168.1 ,9.4 ,961.2 ,865.0 ,100 ,48.97 ,Baixa
277.1 ,0.0 ,97.4 ,160.6 ,11.8 ,973.9 ,875.6 ,28 ,48.28 ,Baixa
295.7 ,0.0 ,95.6 ,171.5 ,8.9 ,955.1 ,859.2 ,3 ,22.95 ,Baixa
295.7 ,0.0 ,95.6 ,171.5 ,8.9 ,955.1 ,859.2 ,56 ,48.72 ,Baixa
251.8 ,0.0 ,99.9 ,146.1 ,12.4 ,1006.0 ,899.8 ,14 ,33.36 ,Baixa
251.8 ,0.0 ,99.9 ,146.1 ,12.4 ,1006.0 ,899.8 ,100 ,45.37 ,Baixa
249.1 ,0.0 ,98.8 ,158.1 ,12.8 ,987.8 ,889.0 ,28 ,30.85 ,Baixa
252.3 ,0.0 ,98.8 ,146.3 ,14.2 ,987.8 ,889.0 ,3 ,21.78 ,Baixa
252.3 ,0.0 ,98.8 ,146.3 ,14.2 ,987.8 ,889.0 ,56 ,55.83 ,Baixa
246.8 ,0.0 ,125.1 ,143.3 ,12.0 ,1086.8 ,800.9 ,14 ,42.22 ,Baixa
246.8 ,0.0 ,125.1 ,143.3 ,12.0 ,1086.8 ,800.9 ,100 ,66.42 ,Alto
275.1 ,0.0 ,121.4 ,159.5 ,9.9 ,1053.6 ,777.5 ,28 ,51.33 ,Baixa
297.2 ,0.0 ,117.5 ,174.8 ,9.5 ,1022.8 ,753.5 ,3 ,21.91 ,Baixa
297.2 ,0.0 ,117.5 ,174.8 ,9.5 ,1022.8 ,753.5 ,56 ,51.96 ,Baixa
213.7 ,0.0 ,174.7 ,154.8 ,10.2 ,1053.5 ,776.4 ,14 ,33.73 ,Baixa
213.7 ,0.0 ,174.7 ,154.8 ,10.2 ,1053.5 ,776.4 ,100 ,50.08 ,Baixa
213.5 ,0.0 ,174.2 ,154.6 ,11.7 ,1052.3 ,775.5 ,28 ,45.94 ,Baixa
277.2 ,97.8 ,24.5 ,160.7 ,11.2 ,1061.7 ,782.5 ,3 ,30.45 ,Baixa
277.2 ,97.8 ,24.5 ,160.7 ,11.2 ,1061.7 ,782.5 ,56 ,66.82 ,Alto
218.2 ,54.6 ,123.8 ,140.8 ,11.9 ,1075.7 ,792.7 ,14 ,35.96 ,Baixa
218.2 ,54.6 ,123.8 ,140.8 ,11.9 ,1075.7 ,792.7 ,100 ,63.53 ,Alto
214.9 ,53.8 ,121.9 ,155.6 ,9.6 ,1014.3 ,780.6 ,28 ,52.20 ,Baixa
218.9 ,0.0 ,124.1 ,158.5 ,11.3 ,1078.7 ,794.9 ,3 ,15.34 ,Baixa
218.9 ,0.0 ,124.1 ,158.5 ,11.3 ,1078.7 ,794.9 ,56 ,37.27 ,Baixa
376.0 ,0.0 ,0.0 ,214.6 ,0.0 ,1003.5 ,762.4 ,14 ,25.62 ,Baixa
376.0 ,0.0 ,0.0 ,214.6 ,0.0 ,1003.5 ,762.4 ,100 ,43.06 ,Baixa
315.0 ,137.0 ,0.0 ,145.0 ,5.9 ,1130.0 ,745.0 ,28 ,81.75 ,Alto
516.0 ,0.0 ,0.0 ,162.0 ,8.2 ,801.0 ,802.0 ,28 ,41.37 ,Baixa
520.0 ,0.0 ,0.0 ,175.0 ,5.2 ,870.0 ,805.0 ,28 ,51.02 ,Baixa
450.1 ,50.0 ,0.0 ,200.0 ,3.0 ,1124.4 ,613.2 ,28 ,39.38 ,Baixa
334.0 ,17.6 ,158.0 ,189.0 ,15.3 ,967.0 ,633.0 ,28 ,44.33 ,Baixa
516.0 ,0.0 ,0.0 ,162.0 ,8.3 ,801.0 ,802.0 ,28 ,41.37 ,Baixa
234.0 ,156.0 ,0.0 ,189.0 ,5.9 ,981.0 ,760.0 ,28 ,39.30 ,Baixa
285.0 ,190.0 ,0.0 ,163.0 ,7.6 ,1031.0 ,685.0 ,28 ,53.58 ,Baixa
500.0 ,0.0 ,0.0 ,151.0 ,9.0 ,1033.0 ,655.0 ,28 ,69.84 ,Alto
178.0 ,129.8 ,118.6 ,179.9 ,3.6 ,1007.3 ,746.8 ,3 ,20.73 ,Baixa
173.5 ,50.1 ,173.5 ,164.8 ,6.5 ,1006.2 ,793.5 ,3 ,23.08 ,Baixa
190.3 ,0.0 ,125.2 ,166.6 ,9.9 ,1079.0 ,798.9 ,3 ,12.55 ,Baixa
194.7 ,0.0 ,100.5 ,170.2 ,7.5 ,998.0 ,901.8 ,3 ,12.18 ,Baixa
165.0 ,128.5 ,132.1 ,175.1 ,8.1 ,1005.8 ,746.6 ,14 ,33.09 ,Baixa
172.4 ,13.6 ,172.4 ,156.8 ,4.1 ,1006.3 ,856.4 ,14 ,29.75 ,Baixa
173.8 ,93.4 ,159.9 ,172.3 ,9.7 ,1007.2 ,746.6 ,14 ,29.55 ,Baixa
213.5 ,0.0 ,174.2 ,159.2 ,11.7 ,1043.6 ,771.9 ,14 ,29.59 ,Baixa
165.0 ,0.0 ,143.6 ,163.8 ,0.0 ,1005.6 ,900.9 ,28 ,26.20 ,Baixa
167.4 ,129.9 ,128.6 ,175.5 ,7.8 ,1006.3 ,746.6 ,28 ,41.20 ,Baixa
167.0 ,75.4 ,167.0 ,164.0 ,7.9 ,1007.3 ,770.1 ,28 ,41.41 ,Baixa
250.0 ,0.0 ,95.7 ,191.8 ,5.3 ,948.9 ,857.2 ,28 ,27.22 ,Baixa
251.4 ,0.0 ,118.3 ,192.9 ,5.8 ,1043.6 ,754.3 ,28 ,33.27 ,Baixa
178.0 ,129.8 ,118.6 ,179.9 ,3.6 ,1007.3 ,746.8 ,56 ,48.59 ,Baixa
173.5 ,50.1 ,173.5 ,164.8 ,6.5 ,1006.2 ,793.5 ,56 ,53.77 ,Baixa
190.3 ,0.0 ,125.2 ,166.6 ,9.9 ,1079.0 ,798.9 ,56 ,31.72 ,Baixa
194.7 ,0.0 ,100.5 ,170.2 ,7.5 ,998.0 ,901.8 ,56 ,43.39 ,Baixa
165.0 ,128.5 ,132.1 ,175.1 ,8.1 ,1005.8 ,746.6 ,100 ,55.02 ,Baixa
172.4 ,13.6 ,172.4 ,156.8 ,4.1 ,1006.3 ,856.4 ,100 ,37.68 ,Baixa
173.8 ,93.4 ,159.9 ,172.3 ,9.7 ,1007.2 ,746.6 ,100 ,50.94 ,Baixa
213.5 ,0.0 ,174.2 ,159.2 ,11.7 ,1043.6 ,771.9 ,100 ,52.96 ,Baixa
446.0 ,24.0 ,79.0 ,162.0 ,11.6 ,967.0 ,712.0 ,28 ,57.03 ,Baixa
446.0 ,24.0 ,79.0 ,162.0 ,10.3 ,967.0 ,712.0 ,28 ,53.39 ,Baixa
446.0 ,24.0 ,79.0 ,162.0 ,11.6 ,967.0 ,712.0 ,3 ,23.35 ,Baixa
446.0 ,24.0 ,79.0 ,162.0 ,11.6 ,967.0 ,712.0 ,7 ,39.30 ,Baixa
446.0 ,24.0 ,79.0 ,162.0 ,11.6 ,967.0 ,712.0 ,56 ,55.25 ,Baixa
387.0 ,20.0 ,94.0 ,157.0 ,13.9 ,938.0 ,845.0 ,28 ,46.68 ,Baixa
387.0 ,20.0 ,94.0 ,157.0 ,13.9 ,938.0 ,845.0 ,3 ,25.51 ,Baixa
387.0 ,20.0 ,94.0 ,157.0 ,13.9 ,938.0 ,845.0 ,7 ,45.90 ,Baixa
387.0 ,20.0 ,94.0 ,157.0 ,13.9 ,938.0 ,845.0 ,56 ,47.97 ,Baixa
355.0 ,19.0 ,97.0 ,145.0 ,12.3 ,967.0 ,871.0 ,28 ,55.45 ,Baixa
491.0 ,26.0 ,123.0 ,210.0 ,3.9 ,882.0 ,699.0 ,3 ,25.61 ,Baixa
491.0 ,26.0 ,123.0 ,201.0 ,3.9 ,822.0 ,699.0 ,3 ,29.55 ,Baixa
424.0 ,22.0 ,132.0 ,178.0 ,8.5 ,822.0 ,750.0 ,28 ,62.05 ,Alto
424.0 ,22.0 ,132.0 ,178.0 ,8.5 ,822.0 ,750.0 ,7 ,39.00 ,Baixa
424.0 ,22.0 ,132.0 ,168.0 ,8.9 ,822.0 ,750.0 ,7 ,40.29 ,Baixa
202.0 ,11.0 ,141.0 ,206.0 ,1.7 ,942.0 ,801.0 ,3 ,9.85 ,Baixa
284.0 ,15.0 ,141.0 ,179.0 ,5.5 ,842.0 ,801.0 ,28 ,43.73 ,Baixa
284.0 ,15.0 ,141.0 ,179.0 ,5.5 ,842.0 ,801.0 ,56 ,44.52 ,Baixa
359.0 ,19.0 ,141.0 ,154.0 ,10.9 ,942.0 ,801.0 ,3 ,25.12 ,Baixa
359.0 ,19.0 ,141.0 ,154.0 ,10.9 ,942.0 ,801.0 ,7 ,38.61 ,Baixa
436.0 ,0.0 ,0.0 ,218.0 ,0.0 ,838.4 ,719.7 ,28 ,23.85 ,Baixa
393.0 ,0.0 ,0.0 ,192.0 ,0.0 ,940.6 ,785.6 ,3 ,19.20 ,Baixa
480.0 ,0.0 ,0.0 ,192.0 ,0.0 ,936.2 ,712.2 ,28 ,43.94 ,Baixa
480.0 ,0.0 ,0.0 ,192.0 ,0.0 ,936.2 ,712.2 ,3 ,24.40 ,Baixa
255.0 ,0.0 ,0.0 ,192.0 ,0.0 ,889.8 ,945.0 ,7 ,10.22 ,Baixa
333.0 ,0.0 ,0.0 ,192.0 ,0.0 ,931.2 ,842.6 ,28 ,31.97 ,Baixa
333.0 ,0.0 ,0.0 ,192.0 ,0.0 ,931.2 ,842.6 ,90 ,41.68 ,Baixa
158.8 ,238.2 ,0.0 ,185.7 ,0.0 ,1040.6 ,734.3 ,7 ,9.62 ,Baixa
181.9 ,272.8 ,0.0 ,185.7 ,0.0 ,1012.4 ,714.3 ,28 ,27.94 ,Baixa
272.8 ,181.9 ,0.0 ,185.7 ,0.0 ,1012.4 ,714.3 ,7 ,19.77 ,Baixa
397.0 ,0.0 ,0.0 ,185.7 ,0.0 ,1040.6 ,734.3 ,28 ,33.08 ,Baixa
158.8 ,238.2 ,0.0 ,185.7 ,0.0 ,1040.6 ,734.3 ,28 ,21.07 ,Baixa
203.5 ,135.7 ,0.0 ,185.7 ,0.0 ,1076.2 ,759.3 ,7 ,11.96 ,Baixa
295.8 ,0.0 ,0.0 ,185.7 ,0.0 ,1091.4 ,769.3 ,28 ,25.22 ,Baixa
316.1 ,210.7 ,0.0 ,185.7 ,0.0 ,977.0 ,689.3 ,28 ,38.70 ,Baixa
339.2 ,0.0 ,0.0 ,185.7 ,0.0 ,1069.2 ,754.3 ,7 ,21.18 ,Baixa
203.5 ,135.7 ,0.0 ,185.7 ,0.0 ,1076.2 ,759.3 ,28 ,22.63 ,Baixa
170.3 ,155.5 ,0.0 ,185.7 ,0.0 ,1026.6 ,724.3 ,28 ,25.73 ,Baixa
290.2 ,193.5 ,0.0 ,185.7 ,0.0 ,998.2 ,704.3 ,28 ,33.04 ,Baixa
186.2 ,124.1 ,0.0 ,185.7 ,0.0 ,1083.4 ,764.3 ,7 ,8.00 ,Baixa
252.5 ,0.0 ,0.0 ,185.7 ,0.0 ,1111.6 ,784.3 ,28 ,19.77 ,Baixa
316.1 ,210.7 ,0.0 ,185.7 ,0.0 ,977.0 ,689.3 ,7 ,24.44 ,Baixa
272.8 ,181.9 ,0.0 ,185.7 ,0.0 ,1012.4 ,714.3 ,28 ,31.38 ,Baixa
339.0 ,0.0 ,0.0 ,197.0 ,0.0 ,968.0 ,781.0 ,14 ,27.04 ,Baixa
339.0 ,0.0 ,0.0 ,197.0 ,0.0 ,968.0 ,781.0 ,180 ,36.45 ,Baixa
236.0 ,0.0 ,0.0 ,194.0 ,0.0 ,968.0 ,885.0 ,14 ,12.84 ,Baixa
236.0 ,0.0 ,0.0 ,193.0 ,0.0 ,968.0 ,885.0 ,180 ,24.10 ,Baixa
277.0 ,0.0 ,0.0 ,191.0 ,0.0 ,968.0 ,856.0 ,28 ,25.97 ,Baixa
277.0 ,0.0 ,0.0 ,191.0 ,0.0 ,968.0 ,856.0 ,180 ,32.33 ,Baixa
254.0 ,0.0 ,0.0 ,198.0 ,0.0 ,968.0 ,863.0 ,90 ,26.94 ,Baixa
307.0 ,0.0 ,0.0 ,193.0 ,0.0 ,968.0 ,812.0 ,180 ,34.49 ,Baixa
307.0 ,0.0 ,0.0 ,193.0 ,0.0 ,968.0 ,812.0 ,28 ,27.53 ,Baixa
200.0 ,0.0 ,0.0 ,180.0 ,0.0 ,1125.0 ,845.0 ,7 ,7.84 ,Baixa
225.0 ,0.0 ,0.0 ,181.0 ,0.0 ,1113.0 ,833.0 ,28 ,17.34 ,Baixa
275.0 ,0.0 ,0.0 ,183.0 ,0.0 ,1088.0 ,808.0 ,7 ,14.20 ,Baixa
300.0 ,0.0 ,0.0 ,184.0 ,0.0 ,1075.0 ,795.0 ,28 ,26.85 ,Baixa
400.0 ,0.0 ,0.0 ,187.0 ,0.0 ,1025.0 ,745.0 ,28 ,43.70 ,Baixa
250.0 ,0.0 ,0.0 ,182.0 ,0.0 ,1100.0 ,820.0 ,28 ,20.87 ,Baixa
203.5 ,305.3 ,0.0 ,203.5 ,0.0 ,963.4 ,630.0 ,7 ,19.54 ,Baixa
141.3 ,212.0 ,0.0 ,203.5 ,0.0 ,971.8 ,748.5 ,28 ,29.89 ,Baixa
183.9 ,122.6 ,0.0 ,203.5 ,0.0 ,959.2 ,800.0 ,3 ,4.90 ,Baixa
122.6 ,183.9 ,0.0 ,203.5 ,0.0 ,958.2 ,800.1 ,28 ,24.29 ,Baixa
108.3 ,162.4 ,0.0 ,203.5 ,0.0 ,938.2 ,849.0 ,28 ,20.59 ,Baixa
116.0 ,173.0 ,0.0 ,192.0 ,0.0 ,909.8 ,891.9 ,90 ,31.02 ,Baixa
133.0 ,200.0 ,0.0 ,192.0 ,0.0 ,927.4 ,839.2 ,28 ,27.87 ,Baixa
192.0 ,288.0 ,0.0 ,192.0 ,0.0 ,929.8 ,716.1 ,3 ,12.79 ,Baixa
288.0 ,192.0 ,0.0 ,192.0 ,0.0 ,932.0 ,717.8 ,3 ,16.11 ,Baixa
173.0 ,116.0 ,0.0 ,192.0 ,0.0 ,946.8 ,856.8 ,3 ,6.94 ,Baixa
183.9 ,122.6 ,0.0 ,203.5 ,0.0 ,959.2 ,800.0 ,90 ,32.53 ,Baixa
288.0 ,192.0 ,0.0 ,192.0 ,0.0 ,932.0 ,717.8 ,28 ,38.80 ,Baixa
173.0 ,116.0 ,0.0 ,192.0 ,0.0 ,946.8 ,856.8 ,28 ,24.28 ,Baixa
192.0 ,288.0 ,0.0 ,192.0 ,0.0 ,929.8 ,716.1 ,90 ,50.73 ,Baixa
236.0 ,157.0 ,0.0 ,192.0 ,0.0 ,972.6 ,749.1 ,90 ,47.78 ,Baixa
288.0 ,192.0 ,0.0 ,192.0 ,0.0 ,932.0 ,717.8 ,7 ,23.52 ,Baixa
153.0 ,102.0 ,0.0 ,192.0 ,0.0 ,888.0 ,943.1 ,28 ,17.96 ,Baixa
183.9 ,122.6 ,0.0 ,203.5 ,0.0 ,959.2 ,800.0 ,7 ,10.79 ,Baixa
203.5 ,305.3 ,0.0 ,203.5 ,0.0 ,963.4 ,630.0 ,3 ,9.56 ,Baixa
200.0 ,133.0 ,0.0 ,192.0 ,0.0 ,965.4 ,806.2 ,7 ,17.17 ,Baixa
122.6 ,183.9 ,0.0 ,203.5 ,0.0 ,958.2 ,800.1 ,3 ,3.32 ,Baixa
116.0 ,173.0 ,0.0 ,192.0 ,0.0 ,909.8 ,891.9 ,3 ,6.28 ,Baixa
305.3 ,203.5 ,0.0 ,203.5 ,0.0 ,965.4 ,631.0 ,90 ,54.60 ,Baixa
153.0 ,102.0 ,0.0 ,192.0 ,0.0 ,888.0 ,943.1 ,7 ,8.37 ,Baixa
141.3 ,212.0 ,0.0 ,203.5 ,0.0 ,971.8 ,748.5 ,3 ,4.83 ,Baixa
203.5 ,305.3 ,0.0 ,203.5 ,0.0 ,963.4 ,630.0 ,90 ,51.86 ,Baixa
310.0 ,0.0 ,0.0 ,192.0 ,0.0 ,1012.0 ,830.0 ,28 ,27.83 ,Baixa
331.0 ,0.0 ,0.0 ,192.0 ,0.0 ,1025.0 ,821.0 ,3 ,14.31 ,Baixa
331.0 ,0.0 ,0.0 ,192.0 ,0.0 ,1025.0 ,821.0 ,90 ,37.91 ,Baixa
349.0 ,0.0 ,0.0 ,192.0 ,0.0 ,1056.0 ,809.0 ,7 ,9.01 ,Baixa
349.0 ,0.0 ,0.0 ,192.0 ,0.0 ,1056.0 ,809.0 ,120 ,40.86 ,Baixa
296.0 ,0.0 ,0.0 ,186.0 ,0.0 ,1090.0 ,769.0 ,7 ,18.91 ,Baixa
480.0 ,0.0 ,0.0 ,192.0 ,0.0 ,936.0 ,721.0 ,28 ,43.89 ,Baixa
281.0 ,0.0 ,0.0 ,186.0 ,0.0 ,1104.0 ,774.0 ,7 ,14.50 ,Baixa
500.0 ,0.0 ,0.0 ,200.0 ,0.0 ,1125.0 ,613.0 ,3 ,26.06 ,Baixa
500.0 ,0.0 ,0.0 ,200.0 ,0.0 ,1125.0 ,613.0 ,28 ,44.09 ,Baixa
540.0 ,0.0 ,0.0 ,173.0 ,0.0 ,1125.0 ,613.0 ,28 ,67.31 ,Alto
540.0 ,0.0 ,0.0 ,173.0 ,0.0 ,1125.0 ,613.0 ,270 ,74.17 ,Alto
350.0 ,0.0 ,0.0 ,203.0 ,0.0 ,974.0 ,775.0 ,28 ,27.34 ,Baixa
350.0 ,0.0 ,0.0 ,203.0 ,0.0 ,974.0 ,775.0 ,180 ,32.72 ,Baixa
385.0 ,0.0 ,0.0 ,186.0 ,0.0 ,966.0 ,763.0 ,7 ,23.22 ,Baixa
331.0 ,0.0 ,0.0 ,192.0 ,0.0 ,978.0 ,825.0 ,180 ,39.00 ,Baixa
331.0 ,0.0 ,0.0 ,192.0 ,0.0 ,978.0 ,825.0 ,3 ,13.52 ,Baixa
382.0 ,0.0 ,0.0 ,186.0 ,0.0 ,1111.0 ,784.0 ,7 ,11.47 ,Baixa
339.0 ,0.0 ,0.0 ,185.0 ,0.0 ,1069.0 ,754.0 ,28 ,31.84 ,Baixa
238.0 ,0.0 ,0.0 ,185.0 ,0.0 ,1118.0 ,789.0 ,28 ,17.54 ,Baixa
296.0 ,0.0 ,0.0 ,192.0 ,0.0 ,1085.0 ,765.0 ,90 ,29.39 ,Baixa
331.0 ,0.0 ,0.0 ,192.0 ,0.0 ,978.0 ,825.0 ,28 ,31.45 ,Baixa
349.0 ,0.0 ,0.0 ,192.0 ,0.0 ,1047.0 ,806.0 ,28 ,32.72 ,Baixa
349.0 ,0.0 ,0.0 ,192.0 ,0.0 ,1047.0 ,806.0 ,360 ,42.13 ,Baixa
525.0 ,0.0 ,0.0 ,189.0 ,0.0 ,1125.0 ,613.0 ,180 ,61.92 ,Alto
500.0 ,0.0 ,0.0 ,200.0 ,0.0 ,1125.0 ,613.0 ,270 ,55.16 ,Baixa
252.0 ,0.0 ,0.0 ,185.0 ,0.0 ,1111.0 ,784.0 ,28 ,19.69 ,Baixa
393.0 ,0.0 ,0.0 ,192.0 ,0.0 ,940.0 ,758.0 ,28 ,39.58 ,Baixa
382.0 ,0.0 ,0.0 ,185.0 ,0.0 ,1047.0 ,739.0 ,28 ,37.42 ,Baixa
310.0 ,0.0 ,0.0 ,192.0 ,0.0 ,970.0 ,850.0 ,7 ,14.99 ,Baixa
310.0 ,0.0 ,0.0 ,192.0 ,0.0 ,970.0 ,850.0 ,180 ,37.33 ,Baixa
525.0 ,0.0 ,0.0 ,189.0 ,0.0 ,1125.0 ,613.0 ,7 ,42.42 ,Baixa
525.0 ,0.0 ,0.0 ,189.0 ,0.0 ,1125.0 ,613.0 ,90 ,58.78 ,Baixa
322.0 ,0.0 ,0.0 ,203.0 ,0.0 ,974.0 ,800.0 ,28 ,25.18 ,Baixa
397.0 ,0.0 ,0.0 ,185.0 ,0.0 ,1040.0 ,734.0 ,28 ,39.09 ,Baixa
522.0 ,0.0 ,0.0 ,146.0 ,0.0 ,896.0 ,896.0 ,28 ,74.99 ,Alto
154.0 ,144.0 ,112.0 ,220.0 ,10.0 ,923.0 ,658.0 ,28 ,16.50 ,Baixa
310.0 ,143.0 ,111.0 ,168.0 ,22.0 ,914.0 ,651.0 ,28 ,33.69 ,Baixa
374.0 ,0.0 ,0.0 ,190.0 ,7.0 ,1013.0 ,730.0 ,28 ,39.05 ,Baixa
310.0 ,143.0 ,0.0 ,168.0 ,10.0 ,914.0 ,804.0 ,28 ,45.30 ,Baixa
142.0 ,167.0 ,130.0 ,174.0 ,11.0 ,883.0 ,785.0 ,28 ,44.61 ,Baixa
366.0 ,187.0 ,0.0 ,191.0 ,7.0 ,824.0 ,757.0 ,28 ,65.91 ,Alto
165.0 ,0.0 ,150.0 ,182.0 ,12.0 ,1023.0 ,729.0 ,28 ,18.03 ,Baixa
298.0 ,0.0 ,107.0 ,186.0 ,6.0 ,879.0 ,815.0 ,28 ,42.64 ,Baixa
326.0 ,166.0 ,0.0 ,174.0 ,9.0 ,882.0 ,790.0 ,28 ,61.23 ,Alto
322.0 ,149.0 ,0.0 ,186.0 ,8.0 ,951.0 ,709.0 ,28 ,52.42 ,Baixa
321.0 ,0.0 ,128.0 ,182.0 ,11.0 ,870.0 ,780.0 ,28 ,37.26 ,Baixa
298.0 ,0.0 ,107.0 ,210.0 ,11.0 ,880.0 ,744.0 ,28 ,31.87 ,Baixa
166.0 ,260.0 ,0.0 ,183.0 ,13.0 ,859.0 ,827.0 ,28 ,37.91 ,Baixa
149.0 ,139.0 ,109.0 ,193.0 ,6.0 ,892.0 ,780.0 ,28 ,23.69 ,Baixa
237.0 ,92.0 ,71.0 ,247.0 ,6.0 ,853.0 ,695.0 ,28 ,28.63 ,Baixa
146.0 ,230.0 ,0.0 ,202.0 ,3.0 ,827.0 ,872.0 ,28 ,33.06 ,Baixa
313.0 ,145.0 ,0.0 ,178.0 ,8.0 ,867.0 ,824.0 ,28 ,44.39 ,Baixa
140.0 ,133.0 ,103.0 ,200.0 ,7.0 ,916.0 ,753.0 ,28 ,36.44 ,Baixa
153.0 ,145.0 ,113.0 ,178.0 ,8.0 ,867.0 ,824.0 ,28 ,26.23 ,Baixa
153.0 ,145.0 ,0.0 ,178.0 ,8.0 ,1000.0 ,822.0 ,28 ,19.01 ,Baixa
151.0 ,0.0 ,185.0 ,167.0 ,16.0 ,1074.0 ,678.0 ,28 ,13.46 ,Baixa
143.0 ,169.0 ,143.0 ,191.0 ,8.0 ,967.0 ,643.0 ,28 ,29.72 ,Baixa
284.0 ,120.0 ,0.0 ,168.0 ,7.0 ,970.0 ,794.0 ,28 ,40.93 ,Baixa
150.0 ,237.0 ,0.0 ,174.0 ,12.0 ,1069.0 ,675.0 ,28 ,37.43 ,Baixa
155.0 ,0.0 ,143.0 ,193.0 ,9.0 ,1047.0 ,697.0 ,28 ,12.46 ,Baixa
266.0 ,112.0 ,87.0 ,178.0 ,10.0 ,910.0 ,745.0 ,28 ,39.42 ,Baixa
146.0 ,173.0 ,0.0 ,182.0 ,3.0 ,986.0 ,817.0 ,28 ,23.74 ,Baixa
277.0 ,117.0 ,91.0 ,191.0 ,7.0 ,946.0 ,666.0 ,28 ,43.57 ,Baixa
155.0 ,184.0 ,143.0 ,194.0 ,9.0 ,880.0 ,699.0 ,28 ,28.99 ,Baixa
145.0 ,0.0 ,179.0 ,202.0 ,8.0 ,824.0 ,869.0 ,28 ,10.54 ,Baixa
155.0 ,0.0 ,143.0 ,193.0 ,9.0 ,877.0 ,868.0 ,28 ,9.74 ,Baixa
136.0 ,196.0 ,98.0 ,199.0 ,6.0 ,847.0 ,783.0 ,28 ,26.97 ,Baixa
157.0 ,214.0 ,152.0 ,200.0 ,9.0 ,819.0 ,704.0 ,28 ,33.05 ,Baixa
159.0 ,209.0 ,161.0 ,201.0 ,7.0 ,848.0 ,669.0 ,28 ,30.88 ,Baixa
167.0 ,187.0 ,195.0 ,185.0 ,7.0 ,898.0 ,636.0 ,28 ,23.89 ,Baixa
236.9 ,91.7 ,71.5 ,246.9 ,6.0 ,852.9 ,695.4 ,28 ,28.63 ,Baixa
145.9 ,230.5 ,0.0 ,202.5 ,3.4 ,827.0 ,871.8 ,28 ,32.72 ,Baixa
313.3 ,145.0 ,0.0 ,178.5 ,8.0 ,867.2 ,824.0 ,28 ,40.93 ,Baixa
139.9 ,132.6 ,103.3 ,200.3 ,7.4 ,916.0 ,753.4 ,28 ,36.44 ,Baixa
153.1 ,145.0 ,113.0 ,178.5 ,8.0 ,867.2 ,824.0 ,28 ,26.23 ,Baixa
152.7 ,144.7 ,0.0 ,178.1 ,8.0 ,999.7 ,822.2 ,28 ,19.01 ,Baixa
150.7 ,0.0 ,185.3 ,166.7 ,15.6 ,1074.5 ,678.0 ,28 ,13.46 ,Baixa
143.0 ,169.4 ,142.7 ,190.7 ,8.4 ,967.4 ,643.5 ,28 ,29.73 ,Baixa
284.0 ,119.7 ,0.0 ,168.3 ,7.2 ,970.4 ,794.2 ,28 ,40.93 ,Baixa
150.0 ,236.8 ,0.0 ,173.8 ,11.9 ,1069.3 ,674.8 ,28 ,37.43 ,Baixa
154.8 ,0.0 ,142.8 ,193.3 ,9.1 ,1047.4 ,696.7 ,28 ,12.46 ,Baixa
266.2 ,112.3 ,87.5 ,177.9 ,10.4 ,909.7 ,744.5 ,28 ,39.42 ,Baixa
145.7 ,172.6 ,0.0 ,181.9 ,3.4 ,985.8 ,816.8 ,28 ,23.74 ,Baixa
277.0 ,116.8 ,91.0 ,190.6 ,7.0 ,946.5 ,665.6 ,28 ,43.58 ,Baixa
155.2 ,183.9 ,143.2 ,193.8 ,9.2 ,879.6 ,698.5 ,28 ,28.99 ,Baixa
145.4 ,0.0 ,178.9 ,201.7 ,7.8 ,824.0 ,868.7 ,28 ,10.54 ,Baixa
154.8 ,0.0 ,142.8 ,193.3 ,9.1 ,877.2 ,867.7 ,28 ,9.74 ,Baixa
162.0 ,190.1 ,148.1 ,178.8 ,18.8 ,838.1 ,741.4 ,28 ,33.76 ,Baixa
151.8 ,178.1 ,138.7 ,167.5 ,18.3 ,944.0 ,694.6 ,28 ,36.35 ,Baixa
303.6 ,139.9 ,0.0 ,213.5 ,6.2 ,895.5 ,722.5 ,28 ,33.42 ,Baixa
152.6 ,238.7 ,0.0 ,200.0 ,6.3 ,1001.8 ,683.9 ,28 ,26.86 ,Baixa
150.9 ,0.0 ,183.9 ,166.6 ,11.6 ,991.2 ,772.2 ,28 ,15.57 ,Baixa
321.3 ,164.2 ,0.0 ,190.5 ,4.6 ,870.0 ,774.0 ,28 ,57.22 ,Baixa
252.1 ,97.1 ,75.6 ,193.8 ,8.3 ,835.5 ,821.4 ,28 ,33.40 ,Baixa
160.2 ,188.0 ,146.4 ,203.2 ,11.3 ,828.7 ,709.7 ,28 ,35.31 ,Baixa
287.3 ,120.5 ,93.9 ,187.6 ,9.2 ,904.4 ,695.9 ,28 ,43.80 ,Baixa
132.0 ,206.5 ,160.9 ,178.9 ,5.5 ,866.9 ,735.6 ,28 ,33.31 ,Baixa
313.8 ,0.0 ,112.6 ,169.9 ,10.1 ,925.3 ,782.9 ,28 ,38.46 ,Baixa
288.4 ,121.0 ,0.0 ,177.4 ,7.0 ,907.9 ,829.5 ,28 ,42.14 ,Baixa
159.8 ,250.0 ,0.0 ,168.4 ,12.2 ,1049.3 ,688.2 ,28 ,39.46 ,Baixa
322.2 ,0.0 ,115.6 ,196.0 ,10.4 ,817.9 ,813.4 ,28 ,31.18 ,Baixa
260.9 ,100.5 ,78.3 ,200.6 ,8.6 ,864.5 ,761.5 ,28 ,32.40 ,Baixa
864.5 ,242.3 ,0.0 ,615.6 ,0.0 ,2236.8 ,1069.2 ,675.0 ,36.2 ,Baixa
691.6 ,136.8 ,0.0 ,410.4 ,0.0 ,1491.2 ,1675.0 ,234.0 ,47.0 ,Baixa
319.2 ,228.0 ,0.0 ,456.0 ,0.0 ,1957.2 ,804.0 ,44.8 ,41.3 ,Baixa
337.6 ,291.3 ,0.0 ,326.4 ,0.0 ,2054.6 ,1155.7 ,61.6 ,30.8 ,Baixa
516.8 ,159.6 ,0.0 ,364.8 ,0.0 ,1677.6 ,1206.0 ,42.0 ,47.8 ,Baixa
718.2 ,79.8 ,0.0 ,273.6 ,0.0 ,2330.0 ,1742.0 ,657.0 ,50.5 ,Baixa
1154.3 ,80.8 ,0.0 ,319.2 ,0.0 ,1304.8 ,1128.6 ,288.0 ,37.7 ,Baixa
363.0 ,251.3 ,0.0 ,422.4 ,0.0 ,1675.2 ,1533.1 ,432.0 ,39.8 ,Baixa
722.0 ,218.5 ,0.0 ,250.8 ,0.0 ,2423.2 ,950.4 ,351.0 ,37.0 ,Baixa
902.5 ,0.0 ,0.0 ,456.0 ,0.0 ,1025.2 ,950.4 ,11.2 ,34.7 ,Baixa
397.2 ,185.4 ,0.0 ,211.2 ,0.0 ,1076.2 ,1403.4 ,198.0 ,37.5 ,Baixa
475.0 ,617.5 ,0.0 ,342.0 ,0.0 ,1584.4 ,1485.0 ,621.0 ,34.6 ,Baixa
855.0 ,0.0 ,0.0 ,524.4 ,0.0 ,1025.2 ,1128.6 ,252.0 ,46.5 ,Baixa
470.3 ,71.3 ,0.0 ,342.0 ,0.0 ,1864.0 ,1009.8 ,766.5 ,39.3 ,Baixa
812.3 ,76.0 ,0.0 ,478.8 ,0.0 ,2516.4 ,1069.2 ,126.0 ,45.7 ,Baixa
532.0 ,152.0 ,0.0 ,501.6 ,0.0 ,2050.4 ,1188.0 ,288.0 ,44.8 ,Baixa
731.5 ,171.0 ,0.0 ,615.6 ,0.0 ,1118.4 ,950.4 ,486.0 ,35.8 ,Baixa
334.4 ,121.6 ,0.0 ,592.8 ,0.0 ,1677.6 ,1809.0 ,207.0 ,54.1 ,Baixa
1282.5 ,0.0 ,0.0 ,456.0 ,0.0 ,2143.6 ,1247.4 ,547.5 ,41.9 ,Baixa
465.5 ,370.5 ,0.0 ,433.2 ,0.0 ,2330.0 ,1188.0 ,47.6 ,29.7 ,Baixa
837.0 ,0.0 ,0.0 ,364.8 ,0.0 ,1844.9 ,2296.6 ,7.8 ,10.9 ,Baixa
513.0 ,41.8 ,0.0 ,296.4 ,0.0 ,2330.0 ,1608.0 ,594.0 ,49.6 ,Baixa
228.0 ,228.0 ,0.0 ,273.6 ,0.0 ,1118.4 ,737.0 ,58.8 ,44.9 ,Baixa
657.9 ,314.6 ,0.0 ,456.3 ,14.6 ,2303.2 ,1162.4 ,4.8 ,31.7 ,Baixa
750.0 ,112.6 ,0.0 ,215.2 ,56.2 ,1022.5 ,2382.2 ,4.8 ,29.0 ,Baixa
552.5 ,116.9 ,0.0 ,414.5 ,33.0 ,2300.7 ,1153.2 ,6.6 ,36.7 ,Baixa
1147.5 ,127.6 ,0.0 ,276.3 ,41.3 ,2215.5 ,1596.8 ,5.7 ,33.4 ,Baixa
797.7 ,340.2 ,0.0 ,214.4 ,24.4 ,1511.5 ,1965.1 ,6.3 ,38.8 ,Baixa
870.2 ,245.7 ,0.0 ,181.4 ,29.0 ,1228.1 ,2116.2 ,6.9 ,38.8 ,Baixa
1009.7 ,265.5 ,0.0 ,279.0 ,23.3 ,1946.8 ,1274.2 ,4.5 ,39.3 ,Baixa
844.8 ,340.2 ,0.0 ,192.4 ,10.5 ,1133.6 ,2040.7 ,6.0 ,24.1 ,Baixa
765.0 ,297.6 ,0.0 ,399.1 ,38.0 ,1619.0 ,1153.2 ,9.8 ,54.1 ,Baixa
902.5 ,273.2 ,0.0 ,489.0 ,22.3 ,1959.8 ,937.8 ,17.5 ,61.2 ,Alto
427.5 ,213.6 ,0.0 ,236.9 ,16.9 ,2385.9 ,2499.4 ,18.9 ,34.9 ,Baixa
382.6 ,318.8 ,0.0 ,249.1 ,18.6 ,1192.9 ,2465.1 ,7.7 ,30.1 ,Baixa
906.4 ,339.4 ,0.0 ,514.6 ,27.8 ,2451.0 ,923.9 ,16.8 ,54.8 ,Baixa
801.6 ,341.5 ,0.0 ,303.9 ,17.9 ,2712.4 ,1848.5 ,14.0 ,38.0 ,Baixa
623.8 ,491.4 ,0.0 ,393.9 ,50.6 ,1228.1 ,1662.8 ,9.1 ,59.1 ,Baixa
748.0 ,246.0 ,0.0 ,204.1 ,25.3 ,1667.0 ,1513.4 ,75.6 ,61.1 ,Alto
1062.5 ,116.9 ,0.0 ,408.8 ,44.6 ,2527.2 ,964.4 ,56.0 ,55.6 ,Baixa
1078.7 ,316.4 ,0.0 ,165.4 ,83.7 ,1448.6 ,2101.3 ,42.0 ,60.2 ,Alto
637.6 ,0.0 ,0.0 ,198.5 ,56.4 ,2300.7 ,2234.3 ,75.6 ,56.4 ,Baixa
1125.0 ,255.7 ,0.0 ,309.5 ,28.5 ,1325.5 ,1363.4 ,67.2 ,75.3 ,Alto
569.3 ,272.2 ,0.0 ,415.5 ,35.0 ,2495.5 ,1210.0 ,50.4 ,57.4 ,Baixa
870.2 ,529.2 ,0.0 ,445.2 ,13.9 ,1228.1 ,1360.4 ,39.2 ,71.3 ,Alto
979.0 ,378.0 ,0.0 ,395.8 ,20.9 ,2550.7 ,1436.0 ,30.8 ,78.4 ,Alto
563.9 ,445.7 ,0.0 ,403.7 ,10.3 ,2198.5 ,1713.0 ,84.0 ,64.9 ,Alto
450.0 ,168.8 ,0.0 ,341.8 ,46.8 ,2045.0 ,2779.3 ,67.2 ,54.2 ,Baixa
637.5 ,127.6 ,0.0 ,322.4 ,33.0 ,1022.5 ,1419.4 ,112.0 ,64.3 ,Alto
1020.0 ,202.0 ,0.0 ,429.8 ,21.5 ,1278.2 ,2217.8 ,128.8 ,70.7 ,Alto
797.7 ,434.7 ,0.0 ,296.8 ,15.1 ,1606.0 ,1889.5 ,89.6 ,85.0 ,Alto
942.8 ,378.0 ,0.0 ,280.3 ,23.2 ,2361.8 ,1284.9 ,95.2 ,77.3 ,Alto
526.8 ,265.5 ,0.0 ,465.0 ,14.4 ,2123.8 ,1061.9 ,145.6 ,71.7 ,Alto
574.4 ,264.6 ,0.0 ,227.4 ,26.6 ,1700.5 ,831.4 ,89.6 ,53.9 ,Baixa
680.0 ,191.3 ,0.0 ,353.1 ,42.9 ,1533.8 ,1774.2 ,127.4 ,58.7 ,Baixa
1092.5 ,130.7 ,0.0 ,380.3 ,18.7 ,2215.5 ,1875.6 ,127.4 ,74.2 ,Alto
505.2 ,271.9 ,0.0 ,379.0 ,32.7 ,1363.4 ,2499.4 ,254.8 ,57.6 ,Baixa
797.0 ,446.3 ,0.0 ,171.3 ,35.8 ,2300.7 ,1232.6 ,182.0 ,74.9 ,Alto
683.1 ,332.6 ,0.0 ,415.5 ,33.4 ,2268.6 ,1270.5 ,145.6 ,56.5 ,Baixa
870.2 ,321.3 ,0.0 ,296.8 ,30.2 ,2645.2 ,1965.1 ,254.8 ,71.4 ,Alto
652.7 ,245.7 ,0.0 ,346.3 ,16.2 ,2645.2 ,1209.3 ,100.1 ,87.2 ,Alto
489.2 ,0.0 ,125.7 ,265.0 ,8.9 ,2224.3 ,2175.8 ,25.2 ,24.4 ,Baixa
622.6 ,0.0 ,174.0 ,473.2 ,6.2 ,2707.8 ,1479.5 ,190.0 ,40.7 ,Baixa
327.3 ,0.0 ,141.9 ,514.5 ,7.3 ,1515.3 ,1704.3 ,33.6 ,20.6 ,Baixa
408.8 ,0.0 ,211.1 ,265.0 ,12.7 ,2516.0 ,1177.7 ,4.2 ,13.7 ,Baixa
369.9 ,0.0 ,241.2 ,231.9 ,9.0 ,1610.2 ,1449.4 ,140.0 ,37.4 ,Baixa
419.5 ,0.0 ,213.2 ,259.4 ,20.2 ,2943.0 ,1929.6 ,32.2 ,23.2 ,Baixa
495.8 ,0.0 ,301.0 ,356.7 ,21.8 ,2180.0 ,1527.6 ,160.0 ,40.6 ,Baixa
296.9 ,0.0 ,340.5 ,270.5 ,8.0 ,2644.0 ,1792.4 ,47.6 ,24.9 ,Baixa
620.9 ,0.0 ,236.6 ,332.3 ,10.2 ,1955.9 ,1896.5 ,8.4 ,9.0 ,Baixa
551.9 ,0.0 ,153.8 ,215.0 ,12.5 ,1647.0 ,1668.9 ,100.8 ,28.4 ,Baixa
342.6 ,0.0 ,200.3 ,437.0 ,19.8 ,2937.9 ,1123.6 ,22.4 ,20.4 ,Baixa
475.9 ,0.0 ,212.8 ,259.0 ,16.8 ,2829.1 ,2167.0 ,190.0 ,36.4 ,Baixa
332.2 ,0.0 ,293.9 ,317.6 ,10.3 ,2858.2 ,1170.1 ,72.8 ,19.4 ,Baixa
436.7 ,88.4 ,245.7 ,170.5 ,6.9 ,1376.3 ,1404.2 ,5.7 ,7.7 ,Baixa
335.9 ,84.2 ,393.2 ,255.7 ,9.7 ,2329.1 ,1794.3 ,78.4 ,32.9 ,Baixa
577.0 ,245.1 ,63.7 ,254.4 ,11.7 ,1705.3 ,2042.0 ,21.0 ,33.4 ,Baixa
534.3 ,235.3 ,53.9 ,272.6 ,8.2 ,1811.9 ,1492.2 ,180.0 ,59.3 ,Baixa
277.9 ,264.8 ,31.9 ,327.1 ,18.6 ,1279.2 ,1256.8 ,70.0 ,44.3 ,Baixa
436.4 ,0.0 ,236.3 ,390.5 ,10.4 ,2364.6 ,909.2 ,4.2 ,13.4 ,Baixa
574.2 ,0.0 ,319.0 ,449.0 ,14.7 ,1850.6 ,1818.3 ,100.8 ,34.5 ,Baixa
404.7 ,0.0 ,197.6 ,298.7 ,18.2 ,2659.7 ,1863.4 ,29.4 ,28.3 ,Baixa
452.3 ,0.0 ,225.9 ,242.7 ,14.7 ,1044.9 ,1948.1 ,180.0 ,48.7 ,Baixa
300.0 ,0.0 ,267.9 ,206.2 ,12.2 ,2009.4 ,1291.8 ,50.4 ,29.2 ,Baixa
382.5 ,0.0 ,240.9 ,191.2 ,14.8 ,2116.4 ,1084.3 ,5.4 ,13.5 ,Baixa
488.8 ,0.0 ,170.6 ,191.2 ,18.3 ,1108.6 ,1265.0 ,112.0 ,46.8 ,Baixa
340.1 ,0.0 ,281.1 ,318.7 ,22.8 ,1104.2 ,2349.9 ,15.4 ,27.9 ,Baixa
467.7 ,0.0 ,180.7 ,191.2 ,15.6 ,2509.5 ,1084.5 ,110.0 ,43.0 ,Baixa
296.8 ,0.0 ,262.0 ,397.5 ,18.8 ,2387.9 ,1279.3 ,78.4 ,34.7 ,Baixa
394.0 ,0.0 ,218.9 ,417.5 ,7.4 ,1373.3 ,1323.4 ,6.6 ,15.4 ,Baixa
533.0 ,0.0 ,316.2 ,278.3 ,16.1 ,2429.7 ,1712.6 ,134.4 ,47.0 ,Baixa
301.6 ,0.0 ,165.6 ,376.9 ,12.7 ,1954.0 ,2121.6 ,25.2 ,29.9 ,Baixa
678.7 ,0.0 ,201.1 ,226.1 ,8.1 ,1542.6 ,1742.8 ,110.0 ,43.6 ,Baixa
553.0 ,0.0 ,248.4 ,395.7 ,7.6 ,2056.8 ,833.5 ,39.2 ,29.4 ,Baixa
507.9 ,0.0 ,384.1 ,407.0 ,16.6 ,1900.1 ,1866.7 ,5.1 ,15.0 ,Baixa
399.0 ,0.0 ,200.4 ,271.3 ,15.1 ,2322.3 ,1711.2 ,123.2 ,39.1 ,Baixa
400.5 ,90.4 ,329.3 ,459.6 ,13.9 ,1906.9 ,1951.6 ,26.6 ,21.5 ,Baixa
436.9 ,113.0 ,256.1 ,442.5 ,14.7 ,2224.7 ,1717.4 ,270.0 ,53.5 ,Baixa
320.9 ,80.2 ,161.5 ,190.0 ,26.0 ,2485.8 ,1671.9 ,72.8 ,31.1 ,Baixa
319.4 ,0.0 ,259.7 ,437.0 ,13.2 ,1441.8 ,1297.5 ,5.1 ,24.8 ,Baixa
667.8 ,0.0 ,259.7 ,386.6 ,10.4 ,2595.2 ,2162.5 ,67.2 ,45.1 ,Baixa
720.3 ,0.0 ,185.0 ,289.1 ,18.9 ,2045.2 ,1488.5 ,25.2 ,46.1 ,Baixa
692.6 ,0.0 ,243.5 ,289.1 ,29.6 ,1655.6 ,2013.9 ,250.0 ,55.6 ,Baixa
739.3 ,0.0 ,229.5 ,291.6 ,13.3 ,2578.9 ,1117.0 ,61.6 ,39.9 ,Baixa
528.8 ,0.0 ,249.9 ,190.0 ,25.9 ,1509.0 ,1889.5 ,8.4 ,23.1 ,Baixa
579.2 ,0.0 ,259.8 ,321.5 ,30.9 ,2213.2 ,1799.5 ,95.2 ,44.1 ,Baixa
498.2 ,0.0 ,128.4 ,237.2 ,19.2 ,2469.4 ,1866.9 ,35.0 ,31.6 ,Baixa
448.4 ,0.0 ,177.8 ,363.7 ,15.4 ,2074.3 ,1422.4 ,230.0 ,51.1 ,Baixa
378.5 ,0.0 ,207.4 ,409.5 ,38.3 ,2271.8 ,1600.2 ,42.0 ,50.6 ,Baixa
444.3 ,0.0 ,350.2 ,172.0 ,20.4 ,2173.6 ,1521.7 ,7.8 ,21.2 ,Baixa
567.7 ,0.0 ,237.7 ,315.3 ,16.8 ,1195.5 ,1681.9 ,112.0 ,66.4 ,Alto
440.1 ,0.0 ,267.0 ,303.0 ,25.7 ,2634.0 ,933.0 ,25.2 ,38.8 ,Baixa
440.1 ,0.0 ,194.2 ,287.1 ,20.8 ,1896.5 ,1943.8 ,170.0 ,64.5 ,Alto
772.6 ,0.0 ,270.3 ,384.6 ,12.4 ,2761.6 ,1356.2 ,36.4 ,42.7 ,Baixa
427.5 ,0.0 ,314.5 ,170.3 ,23.4 ,1580.3 ,1708.0 ,8.4 ,19.3 ,Baixa
555.7 ,0.0 ,367.0 ,356.0 ,26.4 ,1791.0 ,2096.1 ,61.6 ,51.3 ,Baixa
469.7 ,0.0 ,243.9 ,278.3 ,16.3 ,2946.4 ,1008.1 ,39.2 ,37.1 ,Baixa
363.0 ,0.0 ,226.5 ,278.3 ,28.0 ,2946.4 ,1783.6 ,150.0 ,59.3 ,Baixa
332.6 ,156.5 ,29.4 ,192.8 ,26.9 ,1486.4 ,1564.9 ,50.4 ,56.8 ,Baixa
414.6 ,147.5 ,136.2 ,253.4 ,22.6 ,2043.8 ,871.9 ,6.3 ,30.2 ,Baixa
545.6 ,60.1 ,321.8 ,309.7 ,21.4 ,1613.6 ,1030.5 ,84.0 ,55.8 ,Baixa
322.4 ,134.5 ,182.8 ,186.8 ,18.3 ,1217.2 ,1873.4 ,37.8 ,38.6 ,Baixa
429.8 ,102.2 ,341.3 ,233.4 ,14.4 ,2231.5 ,1248.9 ,270.0 ,56.6 ,Baixa
393.9 ,0.0 ,149.0 ,301.1 ,13.6 ,2588.9 ,1907.8 ,58.8 ,27.2 ,Baixa
902.4 ,0.0 ,0.0 ,493.6 ,0.0 ,2408.4 ,2058.4 ,5.7 ,14.7 ,Baixa
564.0 ,0.0 ,0.0 ,472.1 ,0.0 ,1404.9 ,1982.1 ,145.6 ,32.7 ,Baixa
760.0 ,0.0 ,64.9 ,369.2 ,4.8 ,1866.6 ,1346.1 ,33.6 ,57.2 ,Baixa
1262.8 ,0.0 ,0.0 ,247.5 ,29.3 ,2266.0 ,1639.0 ,44.8 ,70.9 ,Alto
950.4 ,0.0 ,0.0 ,296.0 ,12.3 ,1564.0 ,1368.0 ,33.6 ,56.8 ,Baixa
1000.2 ,0.0 ,0.0 ,320.0 ,7.2 ,2811.0 ,1655.6 ,33.6 ,39.7 ,Baixa
632.7 ,21.0 ,358.6 ,467.6 ,28.6 ,2689.2 ,1108.4 ,53.2 ,47.3 ,Baixa
280.0 ,460.0 ,0.0 ,513.0 ,0.0 ,2519.0 ,1716.0 ,72.8 ,54.2 ,Baixa
192.0 ,256.0 ,170.8 ,327.6 ,14.1 ,2060.0 ,1670.1 ,70.0 ,39.4 ,Baixa
570.0 ,0.0 ,0.0 ,210.6 ,16.2 ,1879.2 ,1324.0 ,30.8 ,58.5 ,Baixa
330.0 ,378.0 ,264.0 ,226.8 ,17.6 ,1079.0 ,2142.0 ,67.2 ,83.9 ,Alto
330.0 ,179.9 ,145.3 ,437.7 ,9.7 ,2112.2 ,1567.9 ,3.9 ,21.4 ,Baixa
275.8 ,35.4 ,327.5 ,203.8 ,9.5 ,2213.9 ,2141.0 ,4.2 ,19.2 ,Baixa
260.7 ,233.4 ,447.7 ,361.9 ,10.7 ,2618.7 ,970.6 ,8.4 ,15.8 ,Baixa
298.9 ,0.0 ,191.7 ,238.8 ,28.0 ,1356.7 ,2006.9 ,4.5 ,17.2 ,Baixa
231.0 ,0.0 ,229.7 ,196.6 ,0.0 ,2111.8 ,2432.4 ,30.8 ,18.6 ,Baixa
334.7 ,194.9 ,283.0 ,438.7 ,16.4 ,2213.9 ,1866.5 ,18.2 ,35.0 ,Baixa
434.2 ,150.8 ,350.7 ,262.4 ,16.6 ,1913.9 ,1309.2 ,21.0 ,29.6 ,Baixa
700.0 ,0.0 ,200.9 ,498.8 ,8.5 ,2562.0 ,1200.1 ,36.4 ,22.2 ,Baixa
351.9 ,0.0 ,153.8 ,308.7 ,9.8 ,1669.8 ,1810.3 ,19.6 ,20.7 ,Baixa
284.8 ,155.8 ,142.3 ,233.9 ,5.0 ,1712.4 ,970.8 ,47.6 ,35.2 ,Baixa
329.7 ,70.1 ,277.6 ,296.6 ,14.2 ,1911.8 ,2221.8 ,56.0 ,34.4 ,Baixa
266.5 ,0.0 ,212.8 ,299.9 ,24.7 ,2373.8 ,1118.5 ,30.8 ,27.3 ,Baixa
447.8 ,0.0 ,170.9 ,289.3 ,15.7 ,1397.2 ,1172.3 ,67.2 ,41.0 ,Baixa
396.0 ,269.9 ,224.6 ,297.6 ,13.7 ,2313.3 ,821.3 ,156.8 ,48.4 ,Baixa
344.8 ,25.9 ,206.8 ,423.3 ,4.6 ,2012.6 ,2226.6 ,72.8 ,35.9 ,Baixa
365.0 ,261.4 ,367.8 ,413.6 ,26.3 ,2618.7 ,1717.2 ,145.6 ,44.1 ,Baixa
491.1 ,0.0 ,261.4 ,286.6 ,23.3 ,1669.8 ,1003.5 ,78.4 ,56.4 ,Baixa
330.0 ,0.1 ,301.5 ,196.6 ,0.0 ,2312.9 ,1441.4 ,250.0 ,38.0 ,Baixa
318.0 ,363.7 ,154.3 ,368.5 ,8.6 ,1912.0 ,1343.9 ,180.0 ,53.7 ,Baixa
400.8 ,150.8 ,384.1 ,213.2 ,11.9 ,1611.7 ,1001.1 ,150.0 ,51.1 ,Baixa
425.0 ,0.0 ,239.2 ,326.1 ,12.8 ,1802.9 ,1114.4 ,250.0 ,41.2 ,Baixa
301.6 ,0.0 ,212.9 ,347.3 ,14.4 ,2922.1 ,905.2 ,260.0 ,36.1 ,Baixa
1025.8 ,38.4 ,86.9 ,453.6 ,18.6 ,1837.3 ,854.4 ,33.6 ,45.9 ,Baixa
1070.4 ,60.0 ,126.4 ,178.2 ,18.6 ,1740.6 ,1637.6 ,6.9 ,22.5 ,Baixa
802.8 ,62.4 ,86.9 ,356.4 ,22.1 ,2320.8 ,1281.6 ,13.3 ,38.0 ,Baixa
1204.2 ,31.2 ,181.7 ,243.0 ,16.3 ,1160.4 ,1210.4 ,123.2 ,50.5 ,Baixa
425.7 ,26.0 ,150.4 ,314.0 ,25.8 ,1313.2 ,1436.5 ,30.8 ,50.2 ,Baixa
1044.9 ,28.0 ,216.2 ,361.1 ,17.2 ,2251.2 ,1690.0 ,3.9 ,25.0 ,Baixa
1083.6 ,54.0 ,225.6 ,314.0 ,35.8 ,2438.8 ,1014.0 ,16.8 ,40.5 ,Baixa
425.7 ,36.0 ,112.8 ,408.2 ,31.5 ,1031.8 ,1436.5 ,112.0 ,56.3 ,Baixa
426.0 ,53.2 ,116.4 ,246.5 ,23.6 ,1934.0 ,1829.1 ,67.2 ,48.4 ,Baixa
540.1 ,41.6 ,319.8 ,562.8 ,8.6 ,1233.0 ,768.9 ,70.0 ,63.7 ,Alto
1227.5 ,59.8 ,332.1 ,357.0 ,6.3 ,1323.0 ,1118.4 ,128.8 ,59.6 ,Baixa
1080.2 ,36.4 ,270.6 ,381.9 ,9.4 ,1068.6 ,1817.4 ,106.4 ,61.9 ,Alto
593.6 ,61.6 ,171.6 ,369.6 ,16.1 ,1233.0 ,2100.0 ,30.8 ,64.9 ,Alto
805.6 ,50.6 ,184.8 ,201.6 ,13.4 ,1397.4 ,1050.0 ,4.2 ,28.9 ,Baixa
282.8 ,15.4 ,282.0 ,515.0 ,4.5 ,2637.6 ,1682.1 ,78.4 ,19.8 ,Baixa
262.6 ,27.5 ,155.1 ,267.8 ,4.1 ,1413.0 ,1201.5 ,117.6 ,23.2 ,Baixa
511.2 ,24.0 ,394.8 ,322.2 ,8.2 ,1684.0 ,1281.6 ,9.1 ,24.1 ,Baixa
682.1 ,41.8 ,352.5 ,400.4 ,14.2 ,1224.6 ,1521.9 ,30.8 ,53.5 ,Baixa
682.1 ,38.0 ,253.8 ,323.4 ,19.6 ,2449.2 ,1361.7 ,7.7 ,35.8 ,Baixa
1005.2 ,47.5 ,380.7 ,354.2 ,18.5 ,1413.0 ,2162.7 ,112.0 ,60.1 ,Alto
491.3 ,0.0 ,0.0 ,211.2 ,0.0 ,2100.4 ,2059.2 ,5.7 ,12.8 ,Baixa
550.2 ,0.0 ,0.0 ,326.4 ,0.0 ,1505.0 ,1885.4 ,67.2 ,35.6 ,Baixa
960.0 ,0.0 ,0.0 ,518.4 ,0.0 ,2340.5 ,1780.5 ,135.0 ,54.3 ,Baixa
535.5 ,0.0 ,0.0 ,249.6 ,0.0 ,1601.6 ,2646.0 ,153.0 ,24.0 ,Baixa
280.5 ,0.0 ,0.0 ,326.4 ,0.0 ,2224.5 ,2646.0 ,47.6 ,16.9 ,Baixa
780.3 ,0.0 ,0.0 ,537.6 ,0.0 ,1369.8 ,2059.2 ,75.6 ,28.1 ,Baixa
433.5 ,0.0 ,0.0 ,518.4 ,0.0 ,1690.6 ,1134.0 ,4.5 ,9.0 ,Baixa
571.7 ,381.1 ,0.0 ,241.4 ,0.0 ,1248.7 ,1174.9 ,10.5 ,17.3 ,Baixa
459.9 ,221.4 ,0.0 ,278.6 ,0.0 ,2258.5 ,1521.0 ,14.7 ,17.2 ,Baixa
331.2 ,353.3 ,0.0 ,222.8 ,0.0 ,2848.5 ,1711.9 ,61.6 ,25.7 ,Baixa
400.3 ,885.1 ,0.0 ,297.1 ,0.0 ,1856.3 ,1516.5 ,9.8 ,24.0 ,Baixa
434.4 ,238.4 ,0.0 ,222.8 ,0.0 ,2155.9 ,1376.2 ,67.2 ,28.8 ,Baixa
1067.9 ,0.0 ,0.0 ,297.1 ,0.0 ,2651.0 ,941.2 ,39.2 ,20.2 ,Baixa
574.1 ,309.1 ,0.0 ,260.0 ,0.0 ,2215.5 ,1935.2 ,17.5 ,11.8 ,Baixa
666.7 ,0.0 ,0.0 ,241.4 ,0.0 ,2908.9 ,1184.0 ,42.0 ,17.6 ,Baixa
348.3 ,638.4 ,0.0 ,352.8 ,0.0 ,1397.5 ,1619.9 ,16.8 ,15.5 ,Baixa
272.9 ,654.7 ,0.0 ,204.3 ,0.0 ,2834.7 ,1857.2 ,14.7 ,11.1 ,Baixa
524.4 ,650.0 ,0.0 ,371.4 ,0.0 ,1051.4 ,1146.3 ,19.6 ,21.9 ,Baixa
667.0 ,190.6 ,0.0 ,408.5 ,0.0 ,2497.4 ,1688.9 ,30.8 ,29.6 ,Baixa
619.1 ,0.0 ,0.0 ,334.3 ,0.0 ,3132.6 ,2210.0 ,11.9 ,10.3 ,Baixa
631.3 ,0.0 ,0.0 ,408.5 ,0.0 ,1445.1 ,1568.6 ,8.4 ,10.3 ,Baixa
391.7 ,435.4 ,0.0 ,241.4 ,0.0 ,2669.2 ,1593.5 ,10.5 ,10.7 ,Baixa
779.7 ,0.0 ,0.0 ,413.7 ,0.0 ,2323.2 ,1796.3 ,9.1 ,23.1 ,Baixa
610.2 ,0.0 ,0.0 ,256.1 ,0.0 ,1548.8 ,1718.2 ,108.0 ,35.2 ,Baixa
472.0 ,0.0 ,0.0 ,271.6 ,0.0 ,2710.4 ,1239.0 ,6.3 ,7.1 ,Baixa
660.8 ,0.0 ,0.0 ,310.4 ,0.0 ,2129.6 ,2035.5 ,162.0 ,21.9 ,Baixa
581.7 ,0.0 ,0.0 ,401.1 ,0.0 ,1355.2 ,1797.6 ,33.6 ,23.4 ,Baixa
470.9 ,0.0 ,0.0 ,324.7 ,0.0 ,1355.2 ,1712.0 ,234.0 ,31.3 ,Baixa
457.2 ,0.0 ,0.0 ,534.6 ,0.0 ,1452.0 ,1294.5 ,6.9 ,9.3 ,Baixa
533.4 ,0.0 ,0.0 ,455.4 ,0.0 ,1452.0 ,1898.6 ,985.5 ,26.8 ,Baixa
552.6 ,0.0 ,0.0 ,347.4 ,0.0 ,1645.6 ,1786.4 ,7.2 ,13.8 ,Baixa
306.8 ,0.0 ,0.0 ,386.0 ,0.0 ,1064.8 ,1062.0 ,13.3 ,11.0 ,Baixa
585.0 ,0.0 ,0.0 ,452.5 ,0.0 ,2448.6 ,1166.2 ,18.2 ,11.2 ,Baixa
455.0 ,0.0 ,0.0 ,515.2 ,0.0 ,2657.5 ,1252.8 ,47.6 ,33.6 ,Baixa
480.0 ,0.0 ,0.0 ,441.6 ,0.0 ,2365.0 ,1113.0 ,16.8 ,14.0 ,Baixa
1050.0 ,0.0 ,0.0 ,520.8 ,0.0 ,2387.4 ,2046.6 ,64.4 ,38.2 ,Baixa
300.0 ,0.0 ,0.0 ,200.2 ,0.0 ,1760.0 ,2132.0 ,14.7 ,14.0 ,Baixa
910.0 ,0.0 ,0.0 ,390.6 ,0.0 ,1155.0 ,1463.0 ,78.4 ,37.7 ,Baixa
376.8 ,354.0 ,0.0 ,326.4 ,0.0 ,1403.1 ,1328.0 ,252.0 ,43.4 ,Baixa
196.2 ,386.2 ,0.0 ,284.9 ,0.0 ,2203.9 ,1120.1 ,108.0 ,36.5 ,Baixa
204.0 ,367.2 ,0.0 ,422.4 ,0.0 ,1862.7 ,1224.6 ,162.0 ,28.0 ,Baixa
380.0 ,266.0 ,0.0 ,422.4 ,0.0 ,1641.2 ,1209.3 ,8.4 ,11.4 ,Baixa
151.6 ,194.9 ,0.0 ,508.8 ,0.0 ,2627.0 ,933.9 ,207.0 ,32.2 ,Baixa
235.5 ,306.8 ,0.0 ,307.2 ,0.0 ,2338.5 ,1406.2 ,53.2 ,33.7 ,Baixa
432.5 ,220.4 ,0.0 ,307.2 ,0.0 ,1136.2 ,1970.6 ,11.9 ,10.3 ,Baixa
382.5 ,112.2 ,0.0 ,249.6 ,0.0 ,976.8 ,2169.1 ,4.2 ,4.3 ,Baixa
259.6 ,298.3 ,0.0 ,480.0 ,0.0 ,1750.7 ,1498.2 ,16.1 ,20.4 ,Baixa
566.4 ,345.4 ,0.0 ,288.0 ,0.0 ,1653.4 ,824.0 ,6.9 ,14.9 ,Baixa
275.4 ,290.7 ,0.0 ,403.2 ,0.0 ,2483.6 ,2449.2 ,15.4 ,8.4 ,Baixa
142.8 ,413.1 ,0.0 ,345.6 ,0.0 ,975.7 ,1695.6 ,42.0 ,17.3 ,Baixa
199.5 ,240.0 ,0.0 ,518.4 ,0.0 ,2318.5 ,1678.4 ,180.0 ,32.9 ,Baixa
427.4 ,529.1 ,0.0 ,366.3 ,0.0 ,2220.4 ,1072.7 ,4.2 ,14.1 ,Baixa
282.6 ,377.6 ,0.0 ,403.2 ,0.0 ,2338.5 ,1562.4 ,16.1 ,18.6 ,Baixa
572.4 ,296.7 ,0.0 ,366.3 ,0.0 ,2530.8 ,1050.0 ,135.0 ,43.7 ,Baixa
150.8 ,207.6 ,0.0 ,345.6 ,0.0 ,1728.6 ,2497.3 ,47.6 ,22.3 ,Baixa
468.1 ,824.3 ,0.0 ,223.9 ,0.0 ,2023.1 ,1197.0 ,42.0 ,41.7 ,Baixa
604.8 ,230.4 ,0.0 ,364.8 ,0.0 ,2050.4 ,1507.4 ,108.0 ,45.5 ,Baixa
525.4 ,417.0 ,0.0 ,223.9 ,0.0 ,2053.0 ,1527.0 ,6.0 ,10.7 ,Baixa
220.0 ,319.2 ,0.0 ,268.8 ,0.0 ,2413.5 ,1693.0 ,171.0 ,43.3 ,Baixa
650.5 ,250.2 ,0.0 ,223.9 ,0.0 ,1661.9 ,1735.3 ,61.6 ,37.0 ,Baixa
314.0 ,590.0 ,0.0 ,480.0 ,0.0 ,2619.1 ,937.4 ,6.3 ,8.7 ,Baixa
278.4 ,397.9 ,0.0 ,230.4 ,0.0 ,1546.7 ,2140.6 ,14.7 ,10.1 ,Baixa
367.0 ,400.3 ,0.0 ,386.7 ,0.0 ,2146.3 ,1038.9 ,153.0 ,43.6 ,Baixa
403.0 ,0.0 ,0.0 ,268.8 ,0.0 ,2833.6 ,2158.0 ,16.1 ,17.2 ,Baixa
837.0 ,0.0 ,0.0 ,422.4 ,0.0 ,1821.6 ,1577.0 ,216.0 ,42.6 ,Baixa
595.8 ,0.0 ,0.0 ,480.0 ,0.0 ,1537.5 ,1970.4 ,64.4 ,28.6 ,Baixa
418.8 ,0.0 ,0.0 ,460.8 ,0.0 ,2006.4 ,1375.3 ,6.6 ,,Baixa
628.2 ,0.0 ,0.0 ,518.4 ,0.0 ,2640.0 ,2265.2 ,108.0 ,36.6 ,Baixa
428.4 ,0.0 ,0.0 ,353.4 ,0.0 ,2126.1 ,1420.2 ,39.2 ,19.3 ,Baixa
445.5 ,0.0 ,0.0 ,372.0 ,0.0 ,1768.0 ,2055.2 ,12.6 ,31.0 ,Baixa
436.7 ,0.0 ,0.0 ,353.4 ,0.0 ,2704.0 ,1614.8 ,39.2 ,40.6 ,Baixa
1350.0 ,0.0 ,0.0 ,320.0 ,0.0 ,1800.0 ,1532.5 ,1.2 ,11.4 ,Baixa
600.0 ,0.0 ,0.0 ,220.0 ,0.0 ,1462.5 ,1532.5 ,19.6 ,40.6 ,Baixa
1188.0 ,0.0 ,0.0 ,346.0 ,0.0 ,2025.0 ,1409.9 ,36.4 ,59.8 ,Baixa
972.0 ,0.0 ,0.0 ,380.6 ,0.0 ,1912.5 ,858.2 ,342.0 ,64.5 ,Alto
875.0 ,0.0 ,0.0 ,304.5 ,0.0 ,1948.0 ,1472.5 ,21.0 ,24.8 ,Baixa
490.0 ,0.0 ,0.0 ,263.9 ,0.0 ,1461.0 ,1162.5 ,108.0 ,28.2 ,Baixa
693.0 ,0.0 ,0.0 ,334.8 ,0.0 ,1352.4 ,1297.1 ,8.4 ,16.2 ,Baixa
847.0 ,0.0 ,0.0 ,279.0 ,0.0 ,1545.6 ,1602.3 ,33.6 ,31.4 ,Baixa
942.3 ,0.0 ,0.0 ,499.2 ,0.0 ,1256.4 ,2256.8 ,3.3 ,13.5 ,Baixa
802.2 ,0.0 ,0.0 ,409.2 ,0.0 ,1989.3 ,1921.4 ,56.0 ,41.2 ,Baixa
440.7 ,0.0 ,0.0 ,222.0 ,0.0 ,2886.3 ,1206.4 ,14.7 ,19.0 ,Baixa
354.0 ,0.0 ,0.0 ,518.0 ,0.0 ,1175.9 ,1461.1 ,47.6 ,27.7 ,Baixa
799.2 ,0.0 ,0.0 ,441.6 ,0.0 ,3038.0 ,1071.0 ,42.0 ,21.6 ,Baixa
662.0 ,0.0 ,0.0 ,364.8 ,0.0 ,1369.2 ,1980.0 ,8.4 ,17.9 ,Baixa
767.8 ,0.0 ,0.0 ,384.0 ,0.0 ,2198.7 ,1612.0 ,18.2 ,18.1 ,Baixa
558.4 ,0.0 ,0.0 ,480.0 ,0.0 ,1256.4 ,1612.0 ,252.0 ,41.1 ,Baixa
483.2 ,0.0 ,0.0 ,263.9 ,0.0 ,1558.4 ,2042.5 ,252.0 ,26.7 ,Baixa
700.0 ,0.0 ,0.0 ,320.0 ,0.0 ,2250.0 ,1716.4 ,468.0 ,56.1 ,Baixa
352.8 ,0.0 ,0.0 ,296.0 ,0.0 ,2333.1 ,940.8 ,11.9 ,15.1 ,Baixa
943.2 ,0.0 ,0.0 ,364.8 ,0.0 ,2350.0 ,1364.4 ,5.7 ,19.1 ,Baixa
687.6 ,0.0 ,0.0 ,499.5 ,0.0 ,2826.9 ,1108.5 ,10.5 ,26.4 ,Baixa
403.2 ,0.0 ,0.0 ,333.0 ,0.0 ,1777.6 ,1411.2 ,30.8 ,19.7 ,Baixa
527.0 ,0.0 ,0.0 ,211.2 ,0.0 ,2425.0 ,1615.0 ,198.0 ,38.1 ,Baixa
1312.5 ,0.0 ,0.0 ,226.8 ,0.0 ,2925.0 ,980.8 ,3.6 ,33.8 ,Baixa
1417.5 ,0.0 ,0.0 ,264.6 ,0.0 ,1687.5 ,1226.0 ,67.2 ,55.9 ,Baixa
644.0 ,0.0 ,0.0 ,487.2 ,0.0 ,2142.8 ,1040.0 ,37.8 ,20.8 ,Baixa
332.2 ,0.0 ,0.0 ,466.9 ,0.0 ,1753.2 ,1960.8 ,78.4 ,23.9 ,Baixa
1096.2 ,0.0 ,0.0 ,219.0 ,0.0 ,1881.6 ,2508.8 ,11.2 ,55.6 ,Baixa
194.4 ,361.0 ,236.8 ,304.3 ,43.7 ,1257.0 ,1111.5 ,33.6 ,37.1 ,Baixa
258.4 ,302.6 ,319.7 ,218.4 ,25.2 ,1038.4 ,1807.0 ,58.8 ,40.0 ,Baixa
486.4 ,392.0 ,0.0 ,428.0 ,13.8 ,1969.0 ,2021.6 ,72.8 ,30.1 ,Baixa
229.5 ,430.2 ,0.0 ,280.0 ,10.2 ,2004.0 ,1778.4 ,36.4 ,26.9 ,Baixa
302.0 ,0.0 ,276.0 ,467.6 ,30.0 ,1982.0 ,1698.4 ,64.4 ,15.6 ,Baixa
802.5 ,196.8 ,0.0 ,228.0 ,5.5 ,2175.0 ,928.8 ,47.6 ,57.2 ,Baixa
302.4 ,135.8 ,144.4 ,465.6 ,11.2 ,1586.5 ,2052.5 ,78.4 ,30.1 ,Baixa
176.0 ,282.0 ,321.2 ,345.1 ,16.5 ,2155.4 ,852.0 ,72.8 ,32.8 ,Baixa
774.9 ,169.4 ,197.4 ,300.8 ,9.9 ,1356.0 ,765.6 ,44.8 ,46.1 ,Baixa
330.0 ,558.9 ,257.6 ,375.9 ,8.5 ,2080.8 ,1545.6 ,75.6 ,33.3 ,Baixa
408.2 ,0.0 ,293.8 ,340.0 ,19.0 ,1110.0 ,1722.6 ,64.4 ,34.6 ,Baixa
604.8 ,193.6 ,0.0 ,407.1 ,16.1 ,1452.8 ,911.9 ,50.4 ,46.3 ,Baixa
432.0 ,625.0 ,0.0 ,369.6 ,19.2 ,1573.5 ,1720.0 ,47.6 ,43.4 ,Baixa
644.0 ,0.0 ,278.4 ,392.0 ,28.0 ,1227.0 ,1463.4 ,30.8 ,31.2 ,Baixa
548.1 ,170.0 ,187.2 ,261.3 ,13.5 ,2419.2 ,1217.6 ,39.2 ,29.2 ,Baixa
387.5 ,457.5 ,0.0 ,250.9 ,10.8 ,1361.1 ,1672.8 ,42.0 ,20.1 ,Baixa
279.3 ,504.0 ,0.0 ,372.4 ,6.0 ,1043.9 ,2226.0 ,58.8 ,34.1 ,Baixa
351.9 ,377.0 ,135.6 ,498.4 ,14.4 ,1302.6 ,1240.2 ,30.8 ,23.0 ,Baixa
510.0 ,0.0 ,156.0 ,402.8 ,24.0 ,2370.6 ,1092.0 ,70.0 ,21.5 ,Baixa
456.4 ,0.0 ,331.2 ,238.8 ,16.5 ,1762.2 ,1425.6 ,75.6 ,44.7 ,Baixa
268.6 ,0.0 ,448.5 ,506.0 ,14.3 ,1706.2 ,1568.6 ,78.4 ,8.5 ,Baixa
208.6 ,306.8 ,239.2 ,347.7 ,9.1 ,1429.5 ,936.0 ,50.4 ,23.5 ,Baixa
719.9 ,322.0 ,0.0 ,195.8 ,16.0 ,2475.9 ,1593.9 ,56.0 ,52.4 ,Baixa
391.5 ,0.0 ,268.0 ,506.8 ,13.2 ,1174.8 ,1461.6 ,36.4 ,14.5 ,Baixa
397.2 ,391.0 ,0.0 ,253.5 ,16.8 ,1297.6 ,1283.2 ,67.2 ,56.6 ,Baixa
310.5 ,0.0 ,249.0 ,378.0 ,12.0 ,1153.2 ,1368.5 ,78.4 ,12.0 ,Baixa
469.5 ,348.0 ,0.0 ,203.2 ,11.2 ,2800.0 ,1233.0 ,47.6 ,44.5 ,Baixa
296.0 ,0.0 ,273.0 ,470.6 ,21.0 ,2265.3 ,1502.8 ,42.0 ,15.5 ,Baixa
594.7 ,304.5 ,0.0 ,427.2 ,13.6 ,1102.2 ,1102.4 ,61.6 ,45.2 ,Baixa
414.4 ,402.5 ,0.0 ,376.2 ,5.6 ,1900.0 ,1076.4 ,44.8 ,29.6 ,Baixa
353.6 ,194.4 ,151.2 ,326.8 ,20.0 ,2215.2 ,1757.2 ,67.2 ,32.0 ,Baixa
291.6 ,248.4 ,481.6 ,367.2 ,11.0 ,904.2 ,1276.0 ,36.4 ,43.8 ,Baixa
243.0 ,492.2 ,180.4 ,545.4 ,12.0 ,1230.0 ,1088.0 ,67.2 ,27.6 ,Baixa
364.5 ,168.0 ,328.1 ,254.8 ,8.4 ,1930.0 ,1350.3 ,75.6 ,24.1 ,Baixa
277.2 ,365.4 ,388.5 ,433.2 ,7.7 ,2197.0 ,1652.4 ,42.0 ,21.9 ,Baixa
358.8 ,338.2 ,392.7 ,243.1 ,15.4 ,1878.8 ,921.0 ,47.6 ,32.4 ,Baixa
309.6 ,403.5 ,0.0 ,347.9 ,22.8 ,2513.8 ,1114.7 ,33.6 ,16.5 ,Baixa
266.2 ,357.3 ,0.0 ,469.7 ,4.0 ,1044.3 ,1749.7 ,56.0 ,31.8 ,Baixa
367.4 ,261.0 ,271.2 ,392.7 ,10.4 ,2104.0 ,1033.1 ,75.6 ,28.1 ,Baixa
329.8 ,0.0 ,131.8 ,571.1 ,27.7 ,1317.3 ,1091.4 ,75.6 ,21.5 ,Baixa
848.9 ,0.0 ,386.1 ,517.4 ,30.2 ,1602.2 ,2060.5 ,53.2 ,34.8 ,Baixa
190.1 ,0.0 ,311.8 ,615.2 ,16.5 ,1705.6 ,855.5 ,58.8 ,8.5 ,Baixa
372.5 ,329.3 ,137.6 ,292.6 ,16.3 ,2097.5 ,936.4 ,64.4 ,21.2 ,Baixa
375.5 ,305.0 ,0.0 ,497.3 ,25.9 ,1924.9 ,1215.2 ,47.6 ,57.7 ,Baixa
347.5 ,0.0 ,280.6 ,488.2 ,25.5 ,1665.2 ,1055.0 ,58.8 ,14.5 ,Baixa
826.3 ,441.0 ,0.0 ,526.2 ,15.4 ,1216.5 ,1203.5 ,67.2 ,51.0 ,Baixa
229.0 ,0.0 ,447.4 ,450.5 ,20.0 ,1922.0 ,965.9 ,70.0 ,,Baixa
500.3 ,188.1 ,0.0 ,241.9 ,18.4 ,1299.6 ,2302.2 ,39.2 ,40.1 ,Baixa
296.2 ,0.0 ,473.5 ,471.6 ,30.0 ,2265.0 ,2033.9 ,78.4 ,14.0 ,Baixa
376.0 ,406.0 ,0.0 ,214.2 ,10.4 ,2604.9 ,1170.8 ,56.0 ,41.1 ,Baixa
413.8 ,192.6 ,0.0 ,205.4 ,4.2 ,2100.0 ,1574.2 ,78.4 ,24.2 ,Baixa
286.4 ,193.9 ,301.9 ,188.8 ,13.5 ,2491.0 ,917.3 ,75.6 ,32.0 ,Baixa
381.9 ,262.8 ,155.4 ,524.3 ,18.9 ,2079.2 ,1631.3 ,42.0 ,40.9 ,Baixa
307.7 ,298.0 ,142.9 ,545.1 ,20.2 ,2408.0 ,1576.1 ,42.0 ,18.0 ,Baixa
186.7 ,0.0 ,332.3 ,285.1 ,23.3 ,1319.8 ,1435.7 ,53.2 ,15.4 ,Baixa
428.2 ,387.1 ,301.6 ,402.7 ,27.0 ,1525.3 ,1439.4 ,47.6 ,,Baixa
548.6 ,0.0 ,129.5 ,215.6 ,18.6 ,1055.3 ,1904.0 ,78.4 ,33.1 ,Baixa